{
  "resourceType": "Bundle",
  "identifier": {
    "system": "urn:ietf:rfc:3986",
    "value": "731456cb-d387-4a93-9102-878b4cd8fc86"
  },
  "type": "document",
  "timestamp": "2020-03-27T10:34:52.964387-05:00",
  "entry": [
    {
      "fullUrl": "Composition/5ed4505d-918a-4073-b5eb-ffc81531a928",
      "resource": {
        "resourceType": "Composition",
        "id": "5ed4505d-918a-4073-b5eb-ffc81531a928",
        "meta": {
          "profile": [
            "http://hl7.org/fhir/us/breast-radiology/StructureDefinition/BreastRadComposition"
          ]
        },
        "status": "final",
        "type": {
          "coding": [
            {
              "system": "http://loinc.org",
              "code": "42132-1"
            }
          ],
          "text": "US Breast screening"
        },
        "subject": {
          "reference": "Patient/Patient1"
        },
        "encounter": {
          "reference": "Encounter/Encounter1"
        },
        "date": "2020-03-27T10:34:52.9330264-05:00",
        "author": [
          {
            "reference": "Device/Device1"
          }
        ],
        "title": "Simple Narrative Only Breast Radiology Report",
        "section": [
          {
            "title": "Breast Radiology Report",
            "code": {
              "coding": [
                {
                  "system": "http://hl7.org/fhir/us/breast-radiology/CodeSystem/CompositionSectionSliceCodes",
                  "code": "sectionReport"
                }
              ]
            },
            "entry": [
              {
                "reference": "DiagnosticReport/ReportId"
              }
            ]
          },
          {
            "title": "Admin",
            "code": {
              "coding": [
                {
                  "system": "http://hl7.org/fhir/us/breast-radiology/CodeSystem/CompositionSectionSliceCodes",
                  "code": "sectionCodeAdmin"
                }
              ]
            },
            "entry": [
              {
                "reference": "Patient/Patient1"
              },
              {
                "reference": "Encounter/Encounter1"
              },
              {
                "reference": "Device/Device1"
              }
            ]
          }
        ]
      }
    },
    {
      "fullUrl": "DiagnosticReport/ReportId",
      "resource": {
        "resourceType": "DiagnosticReport",
        "id": "ReportId",
        "meta": {
          "profile": [
            "http://hl7.org/fhir/us/breast-radiology/StructureDefinition/BreastRadReport"
          ]
        },
        "status": "final",
        "category": [
          {
            "coding": [
              {
                "system": "http://terminology.hl7.org/CodeSystem/observation-category",
                "code": "imaging"
              }
            ]
          }
        ],
        "code": {
          "coding": [
            {
              "system": "http://loinc.org",
              "code": "10193-1"
            }
          ]
        },
        "subject": {
          "reference": "Patient/Patient1"
        },
        "encounter": {
          "reference": "Encounter/Encounter1"
        },
        "conclusion": "Report Narrative conclusion.",
        "conclusionCode": [
          {
            "coding": [
              {
                "system": "http://hl7.org/fhir/us/breast-radiology/CodeSystem/BiRadsAssessmentCategoriesCS",
                "code": "Category2"
              }
            ],
            "text": "Category 2 (Benign)"
          }
        ]
      }
    },
    {
      "fullUrl": "Patient/Patient1",
      "resource": {
        "resourceType": "Patient",
        "id": "Patient1",
        "name": [
          {
            "family": "Moose",
            "given": [
              "Bullwinkle"
            ]
          }
        ]
      }
    },
    {
      "fullUrl": "Encounter/Encounter1",
      "resource": {
        "resourceType": "Encounter",
        "id": "Encounter1",
        "status": "finished",
        "class": {
          "system": "http://terminology.hl7.org/CodeSystem/v3-ActCode",
          "code": "CASH"
        }
      }
    },
    {
      "fullUrl": "Device/Device1",
      "resource": {
        "resourceType": "Device",
        "id": "Device1",
        "deviceName": [
          {
            "name": "Test Author",
            "type": "user-friendly-name"
          }
        ]
      }
    }
  ]
}