{
  "resourceType": "Bundle",
  "type": "document",
  "entry": [
    {
      "fullUrl": "http://fhir.healthintersections.com.au/open/Composition/1",
      "resource": {
        "resourceType": "Composition",
        "id": "1",
        "meta": {
          "profile": [
            "http://hl7.org/fhir/us/breast-radiology/StructureDefinition/BreastRadComposition"
          ]
        },
        "subject": {
          "reference": "Patient/1"
        },
        "encounter": {
          "reference": "Encounter/1"
        },
        "date": "2019-11-01",
        "section": [
          {
            "title": "Breast Radiology Report",
            "code": {
              "coding": [
                {
                  "system": "http://hl7.org/fhir/us/breast-radiology/CodeSystem/CompositionSectionSliceCodes",
                  "code": "sectionReport"
                }
              ]
            },
            "entry": [
              {
                "reference": "ReportId"
              },
              {
                "reference": "Device/1"
              },
              {
                "reference": "Encounter/1"
              },
              {
                "reference": "Patient/1"
              }
            ]
          },
          {
            "title": "Clinical Impressions",
            "code": {
              "coding": [
                {
                  "system": "http://hl7.org/fhir/us/breast-radiology/CodeSystem/CompositionSectionSliceCodes",
                  "code": "sectionImpressions"
                }
              ]
            }
          },
          {
            "title": "Findings Right Breast",
            "code": {
              "coding": [
                {
                  "system": "http://hl7.org/fhir/us/breast-radiology/CodeSystem/CompositionSectionSliceCodes",
                  "code": "sectionCodeFindingsRightBreast"
                }
              ]
            }
          },
          {
            "title": "Findings Left Breast",
            "code": {
              "coding": [
                {
                  "system": "http://hl7.org/fhir/us/breast-radiology/CodeSystem/CompositionSectionSliceCodes",
                  "code": "sectionCodeFindingsLeftBreast"
                }
              ]
            }
          },
          {
            "title": "Related Resources",
            "code": {
              "coding": [
                {
                  "system": "http://hl7.org/fhir/us/breast-radiology/CodeSystem/CompositionSectionSliceCodes",
                  "code": "sectionRelatedResources"
                }
              ]
            }
          },
          {
            "title": "Recommendations",
            "code": {
              "coding": [
                {
                  "system": "http://hl7.org/fhir/us/breast-radiology/CodeSystem/CompositionSectionSliceCodes",
                  "code": "sectionCodeRecommendations"
                }
              ]
            }
          }
        ]
      }
    },
    {
      "fullUrl": "http://fhir.healthintersections.com.au/open/Patient/1",
      "resource": {
        "resourceType": "Patient",
        "id": "Patient/1",
        "name": [
          {
            "family": "Moose",
            "given": [
              "Bullwinkle"
            ]
          }
        ]
      }
    },
    {
      "fullUrl": "http://fhir.healthintersections.com.au/open/Encounter/1",
      "resource": {
        "resourceType": "Encounter",
        "id": "Encounter/1",
        "status": "finished",
        "class": {
          "system": "http://terminology.hl7.org/CodeSystem/v3-ActCode",
          "code": "CASH"
        }
      }
    },
    {
      "fullUrl": "http://fhir.healthintersections.com.au/open/Device/1",
      "resource": {
        "resourceType": "Device",
        "id": "Device/1",
        "deviceName": [
          {
            "name": "Test Author",
            "type": "user-friendly-name"
          }
        ]
      }
    },
    {
      "fullUrl": "http://fhir.healthintersections.com.au/open/DiagnosticReport/ReportId",
      "resource": {
        "resourceType": "DiagnosticReport",
        "id": "ReportId",
        "meta": {
          "profile": [
            "http://hl7.org/fhir/us/breast-radiology/StructureDefinition/BreastRadReport"
          ]
        },
        "status": "final",
        "category": [
          {
            "coding": [
              {
                "system": "http://terminology.hl7.org/CodeSystem/observation-category",
                "code": "Imaging"
              }
            ]
          }
        ],
        "code": {
          "coding": [
            {
              "system": "http://loinc.org",
              "code": "10193-1"
            }
          ]
        },
        "subject": {
          "reference": "Patient/1"
        },
        "encounter": {
          "reference": "Encounter/1"
        },
        "conclusion": "Report Narrative conclusion.",
        "conclusionCode": [
          {
            "coding": [
              {
                "system": "http://hl7.org/fhir/us/breast-radiology/CodeSystem/BiRadsAssessmentCategoriesCS",
                "code": "Category2"
              }
            ],
            "text": "Category 2 (Benign)"
          }
        ]
      }
    }
  ]
}