{
  "resourceType": "Bundle",
  "identifier": {
    "system": "system",
    "value": "value"
  },
  "type": "document",
  "timestamp": "2020-03-26T22:12:34.9233622-05:00",
  "entry": [
    {
      "fullUrl": "Composition/86d66eea-b7d2-4b82-b11c-7df53465b9f3",
      "resource": {
        "resourceType": "Composition",
        "id": "86d66eea-b7d2-4b82-b11c-7df53465b9f3",
        "meta": {
          "profile": [
            "http://hl7.org/fhir/us/breast-radiology/StructureDefinition/BreastRadComposition"
          ]
        },
        "subject": {
          "reference": "Patient/Patient1"
        },
        "encounter": {
          "reference": "Encounter/Encounter1"
        },
        "date": "2020-03-26T22:12:34.8950154-05:00",
        "section": [
          {
            "title": "Breast Radiology Report",
            "code": {
              "coding": [
                {
                  "system": "http://hl7.org/fhir/us/breast-radiology/CodeSystem/CompositionSectionSliceCodes",
                  "code": "sectionReport"
                }
              ]
            },
            "entry": [
              {
                "reference": "DiagnosticReport/ReportId"
              }
            ]
          },
          {
            "title": "Clinical Impressions",
            "code": {
              "coding": [
                {
                  "system": "http://hl7.org/fhir/us/breast-radiology/CodeSystem/CompositionSectionSliceCodes",
                  "code": "sectionImpressions"
                }
              ]
            }
          },
          {
            "title": "Findings Right Breast",
            "code": {
              "coding": [
                {
                  "system": "http://hl7.org/fhir/us/breast-radiology/CodeSystem/CompositionSectionSliceCodes",
                  "code": "sectionCodeFindingsRightBreast"
                }
              ]
            }
          },
          {
            "title": "Findings Left Breast",
            "code": {
              "coding": [
                {
                  "system": "http://hl7.org/fhir/us/breast-radiology/CodeSystem/CompositionSectionSliceCodes",
                  "code": "sectionCodeFindingsLeftBreast"
                }
              ]
            }
          },
          {
            "title": "Related Resources",
            "code": {
              "coding": [
                {
                  "system": "http://hl7.org/fhir/us/breast-radiology/CodeSystem/CompositionSectionSliceCodes",
                  "code": "sectionRelatedResources"
                }
              ]
            }
          },
          {
            "title": "Recommendations",
            "code": {
              "coding": [
                {
                  "system": "http://hl7.org/fhir/us/breast-radiology/CodeSystem/CompositionSectionSliceCodes",
                  "code": "sectionCodeRecommendations"
                }
              ]
            }
          },
          {
            "title": "Admin",
            "code": {
              "coding": [
                {
                  "system": "http://hl7.org/fhir/us/breast-radiology/CodeSystem/CompositionSectionSliceCodes",
                  "code": "sectionCodeAdmin"
                }
              ]
            },
            "entry": [
              {
                "reference": "Patient/Patient1"
              },
              {
                "reference": "Encounter/Encounter1"
              },
              {
                "reference": "Device/Device1"
              }
            ]
          }
        ]
      }
    },
    {
      "fullUrl": "DiagnosticReport/ReportId",
      "resource": {
        "resourceType": "DiagnosticReport",
        "id": "ReportId",
        "meta": {
          "profile": [
            "http://hl7.org/fhir/us/breast-radiology/StructureDefinition/BreastRadReport"
          ]
        },
        "status": "final",
        "category": [
          {
            "coding": [
              {
                "system": "http://terminology.hl7.org/CodeSystem/observation-category",
                "code": "Imaging"
              }
            ]
          }
        ],
        "code": {
          "coding": [
            {
              "system": "http://loinc.org",
              "code": "10193-1"
            }
          ]
        },
        "subject": {
          "reference": "Patient/Patient1"
        },
        "encounter": {
          "reference": "Encounter/Encounter1"
        },
        "conclusion": "Report Narrative conclusion.",
        "conclusionCode": [
          {
            "coding": [
              {
                "system": "http://hl7.org/fhir/us/breast-radiology/CodeSystem/BiRadsAssessmentCategoriesCS",
                "code": "Category2"
              }
            ],
            "text": "Category 2 (Benign)"
          }
        ]
      }
    },
    {
      "fullUrl": "Patient/Patient1",
      "resource": {
        "resourceType": "Patient",
        "id": "Patient1",
        "name": [
          {
            "family": "Moose",
            "given": [
              "Bullwinkle"
            ]
          }
        ]
      }
    },
    {
      "fullUrl": "Encounter/Encounter1",
      "resource": {
        "resourceType": "Encounter",
        "id": "Encounter1",
        "status": "finished",
        "class": {
          "system": "http://terminology.hl7.org/CodeSystem/v3-ActCode",
          "code": "CASH"
        }
      }
    },
    {
      "fullUrl": "Device/Device1",
      "resource": {
        "resourceType": "Device",
        "id": "Device1",
        "deviceName": [
          {
            "name": "Test Author",
            "type": "user-friendly-name"
          }
        ]
      }
    }
  ]
}